Folder: nanoparticles/data/14_05

File: B.txt
'B - Storage 180652'
'Wavelength nm.' 'Abs.'
350.00 0.634882
352.00 0.633636
354.00 0.632029
356.00 0.629882
358.00 0.628321
360.00 0.626451
362.00 0.623567
364.00 0.621418
366.00 0.619687
368.00 0.617079
370.00 0.614630
372.00 0.613078
374.00 0.609992
376.00 0.607831
378.00 0.605681
380.00 0.603658
382.00 0.601282
384.00 0.599659
386.00 0.597366
388.00 0.595027
390.00 0.593045
392.00 0.590581
394.00 0.588558
396.00 0.586336
398.00 0.584123
400.00 0.581881
402.00 0.579953
404.00 0.577244
406.00 0.575012
408.00 0.572920
410.00 0.570607
412.00 0.568226
414.00 0.566155
416.00 0.563734
418.00 0.561183
420.00 0.559108
422.00 0.556633
424.00 0.554219
426.00 0.551887
428.00 0.549685
430.00 0.547186
432.00 0.544847
434.00 0.542783
436.00 0.540547
438.00 0.538185
440.00 0.535691
442.00 0.533343
444.00 0.531330
446.00 0.529235
448.00 0.527395
450.00 0.524888
452.00 0.523071
454.00 0.521072
456.00 0.519404
458.00 0.517309
460.00 0.515303
462.00 0.513457
464.00 0.511694
466.00 0.509905
468.00 0.507973
470.00 0.505987
472.00 0.503850
474.00 0.501570
476.00 0.499704
478.00 0.497826
480.00 0.495654
482.00 0.493456
484.00 0.490929
486.00 0.488737
488.00 0.486773
490.00 0.484689
492.00 0.482624
494.00 0.480777
496.00 0.478585
498.00 0.476891
500.00 0.474716
502.00 0.472796
504.00 0.470910
506.00 0.469155
508.00 0.467189
510.00 0.465525
512.00 0.463566
514.00 0.461320
516.00 0.459583
518.00 0.457596
520.00 0.455999
522.00 0.453973
524.00 0.452158
526.00 0.450382
528.00 0.448557
530.00 0.446679
532.00 0.444262
534.00 0.442039
536.00 0.440024
538.00 0.437674
540.00 0.435533
542.00 0.433518
544.00 0.431582
546.00 0.429648
548.00 0.427710
550.00 0.425554
552.00 0.423741
554.00 0.422009
556.00 0.419925
558.00 0.418133
560.00 0.416043
562.00 0.414459
564.00 0.412483
566.00 0.411005
568.00 0.409303
570.00 0.407600
572.00 0.405933
574.00 0.404547
576.00 0.402756
578.00 0.400772
580.00 0.398880
582.00 0.396579
584.00 0.394084
586.00 0.392007
588.00 0.390116
590.00 0.388135
592.00 0.386932
594.00 0.385166
596.00 0.383673
598.00 0.381741
600.00 0.379962
602.00 0.378309
604.00 0.376500
606.00 0.374788
608.00 0.373059
610.00 0.371190
612.00 0.369463
614.00 0.367548
616.00 0.365717
618.00 0.364031
620.00 0.362158
622.00 0.360617
624.00 0.358795
626.00 0.357815
628.00 0.356157
630.00 0.354456
632.00 0.352735
634.00 0.350961
636.00 0.349347
638.00 0.347584
640.00 0.346105
642.00 0.344522
644.00 0.342790
646.00 0.341382
648.00 0.339976
650.00 0.338575
652.00 0.336934
654.00 0.335532
656.00 0.334179
658.00 0.332420
660.00 0.331098
662.00 0.330031
664.00 0.328868
666.00 0.327055
668.00 0.325302
670.00 0.324334
672.00 0.322686
674.00 0.321501
676.00 0.320462
678.00 0.319226
680.00 0.317701
682.00 0.316281
684.00 0.315474
686.00 0.313955
688.00 0.312683
690.00 0.311378
692.00 0.310246
694.00 0.309099
696.00 0.307975
698.00 0.306839
700.00 0.305816
702.00 0.304731
704.00 0.303567
706.00 0.302604
708.00 0.301702
710.00 0.300569
712.00 0.299621
714.00 0.298935
716.00 0.298214
718.00 0.297569
720.00 0.297058
722.00 0.296171
724.00 0.295454
726.00 0.294624
728.00 0.294168
730.00 0.293762
732.00 0.293789
734.00 0.293367
736.00 0.293049
738.00 0.292676
740.00 0.291995
742.00 0.291025
744.00 0.289975
746.00 0.289081
748.00 0.288189
750.00 0.287290
752.00 0.286289
754.00 0.285418
756.00 0.284468
758.00 0.283528
760.00 0.282629
762.00 0.281503
764.00 0.280138
766.00 0.279685
768.00 0.278481
770.00 0.277383
772.00 0.276682
774.00 0.275656
776.00 0.274892
778.00 0.274300
780.00 0.273359
782.00 0.271779
784.00 0.270853
786.00 0.270671
788.00 0.269949
790.00 0.268826
792.00 0.266884
794.00 0.265030
796.00 0.264182
798.00 0.262904
800.00 0.261769

File: File_250514_172903.txt
'File_250514_172903 - Storage 172903'
'Wavelength nm.' 'Abs.'
350.00 0.106791
352.00 0.106130
354.00 0.105330
356.00 0.104681
358.00 0.103530
360.00 0.102883
362.00 0.102168
364.00 0.101399
366.00 0.100861
368.00 0.100103
370.00 0.099292
372.00 0.098407
374.00 0.097237
376.00 0.096826
378.00 0.095953
380.00 0.095165
382.00 0.094297
384.00 0.093672
386.00 0.093030
388.00 0.092254
390.00 0.091560
392.00 0.090816
394.00 0.090215
396.00 0.089502
398.00 0.088777
400.00 0.088129
402.00 0.087591
404.00 0.086832
406.00 0.086108
408.00 0.085481
410.00 0.085041
412.00 0.084427
414.00 0.083960
416.00 0.083260
418.00 0.082712
420.00 0.082325
422.00 0.081630
424.00 0.081058
426.00 0.080448
428.00 0.080026
430.00 0.079626
432.00 0.079249
434.00 0.078748
436.00 0.078279
438.00 0.077805
440.00 0.077410
442.00 0.077059
444.00 0.076631
446.00 0.076337
448.00 0.076148
450.00 0.075816
452.00 0.075640
454.00 0.075329
456.00 0.074942
458.00 0.074914
460.00 0.074532
462.00 0.074477
464.00 0.074327
466.00 0.074138
468.00 0.073970
470.00 0.073887
472.00 0.073722
474.00 0.073720
476.00 0.073548
478.00 0.073322
480.00 0.073316
482.00 0.073173
484.00 0.073158
486.00 0.073230
488.00 0.072946
490.00 0.072774
492.00 0.072497
494.00 0.072454
496.00 0.072308
498.00 0.072284
500.00 0.071999
502.00 0.071932
504.00 0.071713
506.00 0.071585
508.00 0.071519
510.00 0.071471
512.00 0.071291
514.00 0.071034
516.00 0.071046
518.00 0.070954
520.00 0.070754
522.00 0.070604
524.00 0.070614
526.00 0.070315
528.00 0.070299
530.00 0.070154
532.00 0.070099
534.00 0.070076
536.00 0.070018
538.00 0.069833
540.00 0.069868
542.00 0.069639
544.00 0.069491
546.00 0.069374
548.00 0.069273
550.00 0.069096
552.00 0.069095
554.00 0.068888
556.00 0.068661
558.00 0.068590
560.00 0.068375
562.00 0.068279
564.00 0.067935
566.00 0.067777
568.00 0.067611
570.00 0.067509
572.00 0.067315
574.00 0.067160
576.00 0.067007
578.00 0.066821
580.00 0.066816
582.00 0.066709
584.00 0.066681
586.00 0.066427
588.00 0.066247
590.00 0.066149
592.00 0.065969
594.00 0.065682
596.00 0.065740
598.00 0.065593
600.00 0.065406
602.00 0.065272
604.00 0.064997
606.00 0.064935
608.00 0.064619
610.00 0.064423
612.00 0.064130
614.00 0.063880
616.00 0.063706
618.00 0.063454
620.00 0.063221
622.00 0.062951
624.00 0.062706
626.00 0.062693
628.00 0.062469
630.00 0.062239
632.00 0.062020
634.00 0.061880
636.00 0.061653
638.00 0.061446
640.00 0.061280
642.00 0.060983
644.00 0.060906
646.00 0.060822
648.00 0.060638
650.00 0.060503
652.00 0.060230
654.00 0.060278
656.00 0.059997
658.00 0.059772
660.00 0.059609
662.00 0.059529
664.00 0.059520
666.00 0.059532
668.00 0.059279
670.00 0.059290
672.00 0.059045
674.00 0.058986
676.00 0.058863
678.00 0.058723
680.00 0.058555
682.00 0.058455
684.00 0.058640
686.00 0.058304
688.00 0.058029
690.00 0.058050
692.00 0.058057
694.00 0.058005
696.00 0.057948
698.00 0.057856
700.00 0.058022
702.00 0.057863
704.00 0.057806
706.00 0.058146
708.00 0.058026
710.00 0.058122
712.00 0.058276
714.00 0.058512
716.00 0.058697
718.00 0.059084
720.00 0.059419
722.00 0.059631
724.00 0.059928
726.00 0.060277
728.00 0.061065
730.00 0.061646
732.00 0.062483
734.00 0.063507
736.00 0.064056
738.00 0.064569
740.00 0.064579
742.00 0.064726
744.00 0.064723
746.00 0.064593
748.00 0.064707
750.00 0.064498
752.00 0.064389
754.00 0.064243
756.00 0.064190
758.00 0.064305
760.00 0.064034
762.00 0.063918
764.00 0.063658
766.00 0.063581
768.00 0.063346
770.00 0.062986
772.00 0.063010
774.00 0.062592
776.00 0.062372
778.00 0.062407
780.00 0.062341
782.00 0.062317
784.00 0.062022
786.00 0.061976
788.00 0.061505
790.00 0.061211
792.00 0.060701
794.00 0.060666
796.00 0.060372
798.00 0.060115
800.00 0.059585

File: File_250514_173505.txt
'File_250514_173505 - Storage 173505'
'Wavelength nm.' 'Abs.'
350.00 0.188979
352.00 0.188070
354.00 0.187243
356.00 0.186482
358.00 0.185408
360.00 0.184300
362.00 0.183282
364.00 0.182472
366.00 0.181715
368.00 0.180734
370.00 0.179927
372.00 0.179065
374.00 0.177925
376.00 0.177318
378.00 0.176585
380.00 0.175850
382.00 0.174969
384.00 0.174383
386.00 0.173502
388.00 0.172778
390.00 0.172099
392.00 0.171164
394.00 0.170344
396.00 0.169728
398.00 0.168930
400.00 0.168283
402.00 0.167666
404.00 0.166776
406.00 0.166133
408.00 0.165725
410.00 0.165488
412.00 0.164993
414.00 0.164779
416.00 0.164486
418.00 0.164336
420.00 0.164225
422.00 0.163988
424.00 0.163814
426.00 0.163950
428.00 0.163975
430.00 0.164046
432.00 0.164341
434.00 0.164346
436.00 0.164698
438.00 0.164832
440.00 0.165244
442.00 0.165669
444.00 0.165725
446.00 0.166277
448.00 0.166734
450.00 0.167021
452.00 0.167547
454.00 0.168029
456.00 0.168453
458.00 0.169067
460.00 0.169331
462.00 0.170004
464.00 0.170601
466.00 0.171097
468.00 0.171477
470.00 0.172015
472.00 0.172369
474.00 0.172888
476.00 0.173263
478.00 0.173637
480.00 0.174230
482.00 0.174523
484.00 0.175065
486.00 0.175468
488.00 0.175634
490.00 0.175795
492.00 0.176055
494.00 0.176202
496.00 0.176336
498.00 0.176513
500.00 0.176530
502.00 0.176616
504.00 0.176422
506.00 0.176530
508.00 0.176575
510.00 0.176599
512.00 0.176392
514.00 0.176152
516.00 0.176189
518.00 0.175931
520.00 0.175736
522.00 0.175381
524.00 0.175255
526.00 0.174613
528.00 0.174429
530.00 0.173941
532.00 0.173260
534.00 0.172674
536.00 0.172225
538.00 0.171525
540.00 0.171012
542.00 0.170211
544.00 0.169578
546.00 0.168963
548.00 0.168263
550.00 0.167451
552.00 0.166713
554.00 0.166126
556.00 0.165201
558.00 0.164302
560.00 0.163533
562.00 0.162653
564.00 0.161585
566.00 0.160527
568.00 0.159606
570.00 0.158789
572.00 0.157695
574.00 0.156900
576.00 0.155970
578.00 0.155005
580.00 0.154247
582.00 0.153268
584.00 0.152334
586.00 0.151238
588.00 0.150103
590.00 0.149026
592.00 0.148050
594.00 0.147020
596.00 0.146069
598.00 0.145025
600.00 0.143973
602.00 0.142935
604.00 0.141724
606.00 0.140770
608.00 0.139614
610.00 0.138429
612.00 0.137344
614.00 0.136013
616.00 0.134704
618.00 0.133751
620.00 0.132505
622.00 0.131525
624.00 0.130396
626.00 0.129537
628.00 0.128377
630.00 0.127198
632.00 0.126164
634.00 0.124950
636.00 0.124058
638.00 0.122930
640.00 0.121807
642.00 0.120666
644.00 0.119606
646.00 0.118796
648.00 0.117835
650.00 0.116864
652.00 0.115822
654.00 0.114936
656.00 0.113994
658.00 0.112807
660.00 0.111979
662.00 0.111079
664.00 0.110538
666.00 0.109716
668.00 0.108671
670.00 0.108057
672.00 0.107093
674.00 0.106372
676.00 0.105586
678.00 0.104748
680.00 0.103903
682.00 0.103066
684.00 0.102350
686.00 0.101720
688.00 0.100880
690.00 0.100167
692.00 0.099372
694.00 0.098827
696.00 0.098246
698.00 0.097514
700.00 0.097070
702.00 0.096407
704.00 0.095972
706.00 0.095615
708.00 0.095117
710.00 0.094631
712.00 0.094354
714.00 0.093907
716.00 0.093823
718.00 0.093727
720.00 0.093510
722.00 0.093154
724.00 0.093187
726.00 0.093151
728.00 0.093317
730.00 0.093705
732.00 0.094066
734.00 0.094646
736.00 0.094850
738.00 0.094958
740.00 0.094757
742.00 0.094381
744.00 0.093848
746.00 0.093538
748.00 0.093106
750.00 0.092744
752.00 0.092301
754.00 0.091930
756.00 0.091519
758.00 0.091103
760.00 0.090684
762.00 0.090359
764.00 0.089745
766.00 0.089227
768.00 0.088962
770.00 0.088281
772.00 0.087721
774.00 0.087251
776.00 0.086840
778.00 0.086657
780.00 0.086458
782.00 0.086038
784.00 0.085667
786.00 0.085131
788.00 0.084316
790.00 0.083794
792.00 0.083258
794.00 0.082819
796.00 0.082125
798.00 0.081793
800.00 0.081537

File: File_250514_175838.txt
'File_250514_175838 - Storage 175838'
'Wavelength nm.' 'Abs.'
350.00 0.181162
352.00 0.179455
354.00 0.177149
356.00 0.175057
358.00 0.172892
360.00 0.170617
362.00 0.168654
364.00 0.166887
366.00 0.165185
368.00 0.163309
370.00 0.161520
372.00 0.159922
374.00 0.157824
376.00 0.156287
378.00 0.154756
380.00 0.153067
382.00 0.151503
384.00 0.150309
386.00 0.148895
388.00 0.147556
390.00 0.146276
392.00 0.145008
394.00 0.143971
396.00 0.142846
398.00 0.142015
400.00 0.141033
402.00 0.140346
404.00 0.139214
406.00 0.138447
408.00 0.137651
410.00 0.137140
412.00 0.136611
414.00 0.136375
416.00 0.135684
418.00 0.135181
420.00 0.134627
422.00 0.133891
424.00 0.133456
426.00 0.132992
428.00 0.132341
430.00 0.131913
432.00 0.131460
434.00 0.130970
436.00 0.130466
438.00 0.129978
440.00 0.129569
442.00 0.128989
444.00 0.128570
446.00 0.128322
448.00 0.127959
450.00 0.127479
452.00 0.127139
454.00 0.126758
456.00 0.126369
458.00 0.126013
460.00 0.125479
462.00 0.125288
464.00 0.124813
466.00 0.124412
468.00 0.123955
470.00 0.123299
472.00 0.122810
474.00 0.122350
476.00 0.121743
478.00 0.121292
480.00 0.121126
482.00 0.120776
484.00 0.120577
486.00 0.120110
488.00 0.119397
490.00 0.118787
492.00 0.118042
494.00 0.117586
496.00 0.116785
498.00 0.116343
500.00 0.115664
502.00 0.115075
504.00 0.114424
506.00 0.113883
508.00 0.113317
510.00 0.112720
512.00 0.112162
514.00 0.111471
516.00 0.110872
518.00 0.110350
520.00 0.109677
522.00 0.109056
524.00 0.108440
526.00 0.107635
528.00 0.107190
530.00 0.106489
532.00 0.105779
534.00 0.105062
536.00 0.104535
538.00 0.103757
540.00 0.103267
542.00 0.102314
544.00 0.101848
546.00 0.101252
548.00 0.100634
550.00 0.099867
552.00 0.099109
554.00 0.098697
556.00 0.097779
558.00 0.097311
560.00 0.096665
562.00 0.095873
564.00 0.095053
566.00 0.094187
568.00 0.093323
570.00 0.092641
572.00 0.091811
574.00 0.091215
576.00 0.090576
578.00 0.090033
580.00 0.089753
582.00 0.089460
584.00 0.089032
586.00 0.088292
588.00 0.087577
590.00 0.086740
592.00 0.086000
594.00 0.085315
596.00 0.084652
598.00 0.084036
600.00 0.083399
602.00 0.082686
604.00 0.082182
606.00 0.081479
608.00 0.080889
610.00 0.080177
612.00 0.079683
614.00 0.079072
616.00 0.078401
618.00 0.077986
620.00 0.077392
622.00 0.076824
624.00 0.076282
626.00 0.076024
628.00 0.075519
630.00 0.074871
632.00 0.074450
634.00 0.073970
636.00 0.073653
638.00 0.073173
640.00 0.072744
642.00 0.072229
644.00 0.071901
646.00 0.071623
648.00 0.071245
650.00 0.070906
652.00 0.070585
654.00 0.070410
656.00 0.070132
658.00 0.069594
660.00 0.069151
662.00 0.068997
664.00 0.068858
666.00 0.068856
668.00 0.068824
670.00 0.068724
672.00 0.068482
674.00 0.068190
676.00 0.068073
678.00 0.067937
680.00 0.067715
682.00 0.067444
684.00 0.067597
686.00 0.067112
688.00 0.067073
690.00 0.066856
692.00 0.066737
694.00 0.066510
696.00 0.066517
698.00 0.066521
700.00 0.066599
702.00 0.066565
704.00 0.066689
706.00 0.066754
708.00 0.066638
710.00 0.066923
712.00 0.066914
714.00 0.067251
716.00 0.067571
718.00 0.067687
720.00 0.068021
722.00 0.068076
724.00 0.068414
726.00 0.068926
728.00 0.069699
730.00 0.070198
732.00 0.071176
734.00 0.071917
736.00 0.072612
738.00 0.073228
740.00 0.073487
742.00 0.073445
744.00 0.073456
746.00 0.073609
748.00 0.073813
750.00 0.073867
752.00 0.073920
754.00 0.073969
756.00 0.073873
758.00 0.074261
760.00 0.074094
762.00 0.074190
764.00 0.074040
766.00 0.074133
768.00 0.073766
770.00 0.073012
772.00 0.072535
774.00 0.072517
776.00 0.072342
778.00 0.072818
780.00 0.073526
782.00 0.073808
784.00 0.073466
786.00 0.073494
788.00 0.072849
790.00 0.072568
792.00 0.072123
794.00 0.071652
796.00 0.071524
798.00 0.071278
800.00 0.070960

File: G.txt
'File_250514_175048 - Storage 175048'
'Wavelength nm.' 'Abs.'
350.00 0.269753
352.00 0.269248
354.00 0.268248
356.00 0.267573
358.00 0.266223
360.00 0.265552
362.00 0.264428
364.00 0.263560
366.00 0.262705
368.00 0.261812
370.00 0.260984
372.00 0.260229
374.00 0.258946
376.00 0.258463
378.00 0.257693
380.00 0.257010
382.00 0.256150
384.00 0.255733
386.00 0.255239
388.00 0.254721
390.00 0.254349
392.00 0.254014
394.00 0.253916
396.00 0.253710
398.00 0.253751
400.00 0.253865
402.00 0.254237
404.00 0.254266
406.00 0.254482
408.00 0.255109
410.00 0.255713
412.00 0.256327
414.00 0.257120
416.00 0.257608
418.00 0.258415
420.00 0.259030
422.00 0.259379
424.00 0.260089
426.00 0.260858
428.00 0.261611
430.00 0.262156
432.00 0.262871
434.00 0.263431
436.00 0.264040
438.00 0.264580
440.00 0.265225
442.00 0.265757
444.00 0.266140
446.00 0.266542
448.00 0.266975
450.00 0.267375
452.00 0.267731
454.00 0.267921
456.00 0.268229
458.00 0.268415
460.00 0.268343
462.00 0.268594
464.00 0.268705
466.00 0.268805
468.00 0.268546
470.00 0.268423
472.00 0.268091
474.00 0.267735
476.00 0.267309
478.00 0.266735
480.00 0.266152
482.00 0.265541
484.00 0.264843
486.00 0.263954
488.00 0.262971
490.00 0.261949
492.00 0.260762
494.00 0.259645
496.00 0.258415
498.00 0.257272
500.00 0.255854
502.00 0.254372
504.00 0.253000
506.00 0.251581
508.00 0.250119
510.00 0.248667
512.00 0.246827
514.00 0.245095
516.00 0.243529
518.00 0.241793
520.00 0.239938
522.00 0.238039
524.00 0.236162
526.00 0.234224
528.00 0.232518
530.00 0.230324
532.00 0.228016
534.00 0.225818
536.00 0.223863
538.00 0.221396
540.00 0.219276
542.00 0.216992
544.00 0.214912
546.00 0.212872
548.00 0.210731
550.00 0.208538
552.00 0.206461
554.00 0.204465
556.00 0.202196
558.00 0.200115
560.00 0.197961
562.00 0.195829
564.00 0.193670
566.00 0.191499
568.00 0.189463
570.00 0.187506
572.00 0.185406
574.00 0.183564
576.00 0.181517
578.00 0.179459
580.00 0.177636
582.00 0.175603
584.00 0.173601
586.00 0.171637
588.00 0.169685
590.00 0.167852
592.00 0.166050
594.00 0.164176
596.00 0.162450
598.00 0.160654
600.00 0.158815
602.00 0.157109
604.00 0.155255
606.00 0.153462
608.00 0.151625
610.00 0.149714
612.00 0.147963
614.00 0.146127
616.00 0.144363
618.00 0.142692
620.00 0.140970
622.00 0.139362
624.00 0.137657
626.00 0.136405
628.00 0.134877
630.00 0.133352
632.00 0.131683
634.00 0.130258
636.00 0.128875
638.00 0.127368
640.00 0.126026
642.00 0.124515
644.00 0.123180
646.00 0.122007
648.00 0.120817
650.00 0.119551
652.00 0.118340
654.00 0.117155
656.00 0.116064
658.00 0.114618
660.00 0.113516
662.00 0.112545
664.00 0.111716
666.00 0.110728
668.00 0.109616
670.00 0.108896
672.00 0.107785
674.00 0.106766
676.00 0.105961
678.00 0.105123
680.00 0.104062
682.00 0.103129
684.00 0.102574
686.00 0.101544
688.00 0.100827
690.00 0.099800
692.00 0.099160
694.00 0.098446
696.00 0.097770
698.00 0.097001
700.00 0.096650
702.00 0.095988
704.00 0.095377
706.00 0.094882
708.00 0.094316
710.00 0.093910
712.00 0.093589
714.00 0.093021
716.00 0.092974
718.00 0.092816
720.00 0.092515
722.00 0.092260
724.00 0.092281
726.00 0.092070
728.00 0.092198
730.00 0.092432
732.00 0.092953
734.00 0.093295
736.00 0.093459
738.00 0.093551
740.00 0.093306
742.00 0.093170
744.00 0.092420
746.00 0.092030
748.00 0.091552
750.00 0.091322
752.00 0.090681
754.00 0.090212
756.00 0.089749
758.00 0.089366
760.00 0.089000
762.00 0.088559
764.00 0.088048
766.00 0.087737
768.00 0.087232
770.00 0.086543
772.00 0.086060
774.00 0.085678
776.00 0.085107
778.00 0.084726
780.00 0.084454
782.00 0.084011
784.00 0.083402
786.00 0.083111
788.00 0.082442
790.00 0.081847
792.00 0.081182
794.00 0.080725
796.00 0.080319
798.00 0.079626
800.00 0.079037

File: Y2.txt
'File_250514_184140 - Storage 184140'
'Wavelength nm.' 'Abs.'
350.00 0.585586
352.00 0.584880
354.00 0.583745
356.00 0.582592
358.00 0.581527
360.00 0.580696
362.00 0.580158
364.00 0.578886
366.00 0.577827
368.00 0.576729
370.00 0.575811
372.00 0.574827
374.00 0.573283
376.00 0.572584
378.00 0.571899
380.00 0.571069
382.00 0.570229
384.00 0.569727
386.00 0.568996
388.00 0.568189
390.00 0.567612
392.00 0.567038
394.00 0.566275
396.00 0.565866
398.00 0.565197
400.00 0.564764
402.00 0.564437
404.00 0.563444
406.00 0.563074
408.00 0.562818
410.00 0.562970
412.00 0.563069
414.00 0.563294
416.00 0.563214
418.00 0.563386
420.00 0.563160
422.00 0.562389
424.00 0.562606
426.00 0.562979
428.00 0.563228
430.00 0.563646
432.00 0.564308
434.00 0.564824
436.00 0.565382
438.00 0.566002
440.00 0.566769
442.00 0.567360
444.00 0.568187
446.00 0.568999
448.00 0.569790
450.00 0.570516
452.00 0.571222
454.00 0.571969
456.00 0.572822
458.00 0.573814
460.00 0.574391
462.00 0.575459
464.00 0.576169
466.00 0.577286
468.00 0.577831
470.00 0.578536
472.00 0.579221
474.00 0.579725
476.00 0.580285
478.00 0.580689
480.00 0.581188
482.00 0.581663
484.00 0.582032
486.00 0.582251
488.00 0.582361
490.00 0.582233
492.00 0.582248
494.00 0.582197
496.00 0.582005
498.00 0.581906
500.00 0.581545
502.00 0.581195
504.00 0.580651
506.00 0.580271
508.00 0.579745
510.00 0.579287
512.00 0.578518
514.00 0.577599
516.00 0.576779
518.00 0.575846
520.00 0.574893
522.00 0.573637
524.00 0.572533
526.00 0.571267
528.00 0.569950
530.00 0.567931
532.00 0.563925
534.00 0.561354
536.00 0.558846
538.00 0.556132
540.00 0.553647
542.00 0.551025
544.00 0.548544
546.00 0.546191
548.00 0.543684
550.00 0.540913
552.00 0.538506
554.00 0.535969
556.00 0.533126
558.00 0.530401
560.00 0.527483
562.00 0.524656
564.00 0.521608
566.00 0.518578
568.00 0.515434
570.00 0.512515
572.00 0.509484
574.00 0.506778
576.00 0.503615
578.00 0.500523
580.00 0.497507
582.00 0.494430
584.00 0.491090
586.00 0.487439
588.00 0.483728
590.00 0.480286
592.00 0.477069
594.00 0.473493
596.00 0.469968
598.00 0.466388
600.00 0.462878
602.00 0.459254
604.00 0.455371
606.00 0.451682
608.00 0.447786
610.00 0.443769
612.00 0.439893
614.00 0.435778
616.00 0.431869
618.00 0.428018
620.00 0.424045
622.00 0.420286
624.00 0.416222
626.00 0.413049
628.00 0.409116
630.00 0.405090
632.00 0.401031
634.00 0.396900
636.00 0.392947
638.00 0.388825
640.00 0.384934
642.00 0.380910
644.00 0.376974
646.00 0.373164
648.00 0.369314
650.00 0.365389
652.00 0.361478
654.00 0.357782
656.00 0.353849
658.00 0.349409
660.00 0.345708
662.00 0.342285
664.00 0.338922
666.00 0.335429
668.00 0.331588
670.00 0.328538
672.00 0.324463
674.00 0.321007
676.00 0.317669
678.00 0.314062
680.00 0.310330
682.00 0.306717
684.00 0.303831
686.00 0.300074
688.00 0.296694
690.00 0.293162
692.00 0.290061
694.00 0.287006
696.00 0.283840
698.00 0.280659
700.00 0.278010
702.00 0.274904
704.00 0.271839
706.00 0.269072
708.00 0.266211
710.00 0.263554
712.00 0.260845
714.00 0.258261
716.00 0.255986
718.00 0.253672
720.00 0.251562
722.00 0.248905
724.00 0.246845
726.00 0.244596
728.00 0.242671
730.00 0.241151
732.00 0.239497
734.00 0.238037
736.00 0.236359
738.00 0.234811
740.00 0.232539
742.00 0.230525
744.00 0.228035
746.00 0.226259
748.00 0.223881
750.00 0.221699
752.00 0.219606
754.00 0.217590
756.00 0.215533
758.00 0.213574
760.00 0.211953
762.00 0.209812
764.00 0.207811
766.00 0.205971
768.00 0.203773
770.00 0.201654
772.00 0.199885
774.00 0.198182
776.00 0.196372
778.00 0.194904
780.00 0.193350
782.00 0.191615
784.00 0.189864
786.00 0.188447
788.00 0.186331
790.00 0.184670
792.00 0.182989
794.00 0.181248
796.00 0.179667
798.00 0.178157
800.00 0.176136