Folder: nanoparticles/data/14_05/.ipynb_checkpoints

File: File_250514_183332-checkpoint.txt
'File_250514_183332 - Storage 183332'
'Wavelength nm.' 'Abs.'
350.00 0.257033
352.00 0.255566
354.00 0.253999
356.00 0.252435
358.00 0.250711
360.00 0.249123
362.00 0.247408
364.00 0.245930
366.00 0.244622
368.00 0.243161
370.00 0.241618
372.00 0.240389
374.00 0.238628
376.00 0.237569
378.00 0.236611
380.00 0.235297
382.00 0.234027
384.00 0.233178
386.00 0.231859
388.00 0.230797
390.00 0.229865
392.00 0.228679
394.00 0.227574
396.00 0.226669
398.00 0.225643
400.00 0.224846
402.00 0.224036
404.00 0.222961
406.00 0.222152
408.00 0.221335
410.00 0.220578
412.00 0.219884
414.00 0.219335
416.00 0.218636
418.00 0.218009
420.00 0.217542
422.00 0.216948
424.00 0.216475
426.00 0.216061
428.00 0.215556
430.00 0.215206
432.00 0.214925
434.00 0.214695
436.00 0.214375
438.00 0.214082
440.00 0.213996
442.00 0.213829
444.00 0.213627
446.00 0.213696
448.00 0.213791
450.00 0.213646
452.00 0.213853
454.00 0.213853
456.00 0.213999
458.00 0.214199
460.00 0.214159
462.00 0.214524
464.00 0.214728
466.00 0.214956
468.00 0.214890
470.00 0.215004
472.00 0.215001
474.00 0.215107
476.00 0.215211
478.00 0.215335
480.00 0.215539
482.00 0.215758
484.00 0.215864
486.00 0.215831
488.00 0.215818
490.00 0.215721
492.00 0.215657
494.00 0.215654
496.00 0.215474
498.00 0.215535
500.00 0.215267
502.00 0.215214
504.00 0.215050
506.00 0.214965
508.00 0.214790
510.00 0.214690
512.00 0.214399
514.00 0.214086
516.00 0.213900
518.00 0.213658
520.00 0.213298
522.00 0.212862
524.00 0.212591
526.00 0.212003
528.00 0.211623
530.00 0.211188
532.00 0.210446
534.00 0.209743
536.00 0.209233
538.00 0.208348
540.00 0.207793
542.00 0.206774
544.00 0.206078
546.00 0.205370
548.00 0.204582
550.00 0.203761
552.00 0.202796
554.00 0.202058
556.00 0.201107
558.00 0.200160
560.00 0.199123
562.00 0.198058
564.00 0.196846
566.00 0.195677
568.00 0.194695
570.00 0.193512
572.00 0.192447
574.00 0.191472
576.00 0.190336
578.00 0.189247
580.00 0.188231
582.00 0.187257
584.00 0.186018
586.00 0.184698
588.00 0.183246
590.00 0.181879
592.00 0.180689
594.00 0.179374
596.00 0.178149
598.00 0.176743
600.00 0.175515
602.00 0.174128
604.00 0.172695
606.00 0.171284
608.00 0.169851
610.00 0.168387
612.00 0.167085
614.00 0.165460
616.00 0.164027
618.00 0.162734
620.00 0.161271
622.00 0.159860
624.00 0.158453
626.00 0.157370
628.00 0.155939
630.00 0.154425
632.00 0.153013
634.00 0.151774
636.00 0.150343
638.00 0.148946
640.00 0.147531
642.00 0.146083
644.00 0.144782
646.00 0.143591
648.00 0.142312
650.00 0.141092
652.00 0.139723
654.00 0.138614
656.00 0.137399
658.00 0.135915
660.00 0.134797
662.00 0.133680
664.00 0.132729
666.00 0.131621
668.00 0.130199
670.00 0.129271
672.00 0.128050
674.00 0.126835
676.00 0.125969
678.00 0.124943
680.00 0.123679
682.00 0.122702
684.00 0.121765
686.00 0.120686
688.00 0.119655
690.00 0.118674
692.00 0.117627
694.00 0.116703
696.00 0.115858
698.00 0.115090
700.00 0.114246
702.00 0.113310
704.00 0.112604
706.00 0.111979
708.00 0.111282
710.00 0.110573
712.00 0.109934
714.00 0.109317
716.00 0.109067
718.00 0.108715
720.00 0.108332
722.00 0.107643
724.00 0.107428
726.00 0.107033
728.00 0.107139
730.00 0.107189
732.00 0.107527
734.00 0.107780
736.00 0.107888
738.00 0.107722
740.00 0.107238
742.00 0.106880
744.00 0.105909
746.00 0.105545
748.00 0.104807
750.00 0.104460
752.00 0.103924
754.00 0.103341
756.00 0.102923
758.00 0.102411
760.00 0.102184
762.00 0.101716
764.00 0.100926
766.00 0.100470
768.00 0.099645
770.00 0.099159
772.00 0.098351
774.00 0.097923
776.00 0.097358
778.00 0.097457
780.00 0.097410
782.00 0.096802
784.00 0.095931
786.00 0.095562
788.00 0.094498
790.00 0.094050
792.00 0.093296
794.00 0.092675
796.00 0.092257
798.00 0.091628
800.00 0.091036

File: X-checkpoint.txt
'File_250514_172242 - Storage 172242'
'Wavelength nm.' 'Abs.'
350.00 0.132471
352.00 0.131976
354.00 0.131008
356.00 0.130418
358.00 0.129676
360.00 0.128981
362.00 0.128401
364.00 0.127604
366.00 0.127152
368.00 0.126410
370.00 0.125660
372.00 0.125143
374.00 0.123981
376.00 0.123419
378.00 0.122741
380.00 0.121944
382.00 0.121306
384.00 0.120871
386.00 0.120202
388.00 0.119550
390.00 0.118956
392.00 0.118386
394.00 0.117764
396.00 0.117097
398.00 0.116592
400.00 0.116032
402.00 0.115477
404.00 0.114689
406.00 0.114129
408.00 0.113702
410.00 0.113209
412.00 0.112495
414.00 0.112149
416.00 0.111605
418.00 0.110989
420.00 0.110725
422.00 0.110160
424.00 0.109766
426.00 0.109340
428.00 0.108874
430.00 0.108550
432.00 0.108178
434.00 0.107899
436.00 0.107551
438.00 0.107058
440.00 0.106852
442.00 0.106590
444.00 0.106305
446.00 0.106141
448.00 0.106002
450.00 0.105784
452.00 0.105678
454.00 0.105478
456.00 0.105483
458.00 0.105376
460.00 0.105128
462.00 0.105216
464.00 0.105174
466.00 0.105121
468.00 0.105108
470.00 0.104985
472.00 0.104938
474.00 0.105074
476.00 0.105079
478.00 0.105039
480.00 0.104957
482.00 0.104888
484.00 0.104988
486.00 0.105006
488.00 0.104915
490.00 0.104852
492.00 0.104690
494.00 0.104760
496.00 0.104743
498.00 0.104785
500.00 0.104745
502.00 0.104645
504.00 0.104569
506.00 0.104639
508.00 0.104663
510.00 0.104592
512.00 0.104560
514.00 0.104376
516.00 0.104480
518.00 0.104499
520.00 0.104387
522.00 0.104372
524.00 0.104311
526.00 0.104115
528.00 0.104239
530.00 0.104303
532.00 0.104265
534.00 0.104252
536.00 0.104244
538.00 0.104075
540.00 0.104116
542.00 0.103914
544.00 0.103912
546.00 0.103858
548.00 0.103746
550.00 0.103684
552.00 0.103654
554.00 0.103718
556.00 0.103587
558.00 0.103429
560.00 0.103354
562.00 0.103306
564.00 0.103160
566.00 0.103123
568.00 0.102979
570.00 0.103036
572.00 0.102834
574.00 0.102780
576.00 0.102699
578.00 0.102427
580.00 0.102358
582.00 0.102238
584.00 0.102001
586.00 0.101818
588.00 0.101908
590.00 0.101728
592.00 0.101676
594.00 0.101413
596.00 0.101497
598.00 0.101428
600.00 0.101188
602.00 0.101044
604.00 0.100849
606.00 0.100605
608.00 0.100382
610.00 0.100166
612.00 0.099945
614.00 0.099531
616.00 0.099269
618.00 0.099145
620.00 0.098831
622.00 0.098497
624.00 0.098331
626.00 0.098335
628.00 0.098095
630.00 0.097725
632.00 0.097509
634.00 0.097233
636.00 0.097079
638.00 0.096735
640.00 0.096441
642.00 0.096257
644.00 0.095956
646.00 0.095707
648.00 0.095580
650.00 0.095189
652.00 0.094940
654.00 0.094845
656.00 0.094688
658.00 0.094347
660.00 0.094130
662.00 0.094162
664.00 0.094268
666.00 0.094121
668.00 0.093787
670.00 0.093790
672.00 0.093468
674.00 0.093248
676.00 0.093112
678.00 0.093003
680.00 0.092743
682.00 0.092589
684.00 0.092564
686.00 0.092167
688.00 0.091903
690.00 0.091600
692.00 0.091533
694.00 0.091360
696.00 0.091286
698.00 0.090966
700.00 0.091057
702.00 0.090932
704.00 0.090787
706.00 0.090808
708.00 0.090633
710.00 0.090719
712.00 0.090820
714.00 0.090796
716.00 0.090939
718.00 0.091194
720.00 0.091388
722.00 0.091400
724.00 0.091825
726.00 0.091989
728.00 0.092487
730.00 0.093034
732.00 0.093831
734.00 0.094550
736.00 0.095163
738.00 0.095626
740.00 0.095542
742.00 0.095390
744.00 0.095224
746.00 0.095063
748.00 0.095020
750.00 0.094815
752.00 0.094403
754.00 0.094200
756.00 0.094151
758.00 0.093780
760.00 0.093791
762.00 0.093546
764.00 0.093009
766.00 0.093042
768.00 0.092909
770.00 0.092497
772.00 0.092316
774.00 0.091825
776.00 0.091689
778.00 0.091232
780.00 0.090943
782.00 0.090640
784.00 0.090150
786.00 0.090105
788.00 0.089362
790.00 0.089233
792.00 0.088738
794.00 0.088355
796.00 0.087922
798.00 0.087408
800.00 0.087017